time,accel_x,accel_y,accel_z,gyr_x,gyr_y,gyr_z
1,-0.76,0.15,0.4,17.09,-17.94,27.28
2,-0.82,0.15,0.45,2.32,7.57,-6.9
3,-0.83,0.1,0.5,15.32,17.76,-21.67
4,-1.04,0.13,0.44,17.58,35.03,-30.46
5,-0.85,0.04,0.29,6.47,42.54,-31.62
6,-0.96,0.04,0.29,6.53,9.83,-19.96
7,-0.97,-0.02,0.3,-8.61,11.41,-14.16
8,-0.97,-0.07,0.26,-4.58,4.09,-8.42
9,-0.92,-0.07,0.26,-0.43,-3.36,3.05
10,-0.97,-0.04,0.29,2.32,-0.67,4.09
11,-0.96,-0.03,0.3,5.25,-1.28,3.97
12,-0.96,-0.02,0.28,6.1,0.61,2.99
13,-0.96,-0.04,0.29,3.42,-3.48,1.65
14,-1.06,-0.16,0.32,10.5,-52.92,49.32
15,-1.15,-0.13,0.34,112.24,24.96,101.26
16,-1.04,0.18,0.08,80.81,10.93,87.34
17,-1.12,0.44,0.21,-113.89,24.54,55.05
18,-1.16,0.43,0.83,-94.91,42.91,50.48
19,-0.68,0.21,0.57,-6.96,-44.31,12.15
20,-0.67,0.13,0.51,118.16,-39.43,-7.51
21,-0.55,0.38,0.16,139.04,-10.62,28.08
22,-0.67,0.01,-0.03,94.73,-13.24,-0.49
23,-0.62,0.72,-0.15,28.08,-6.96,-17.76
24,-0.78,0.82,0.11,-21.48,-25.7,-3.11
25,-0.71,0.71,0.2,-40.71,-29.36,17.46
26,-0.82,0.86,0.11,-46.2,-38.76,-20.32
27,-1.04,1.2,-0.17,-165.53,-23.86,5.62
28,-0.93,0.41,0.09,-200.74,-15.81,61.58
29,-0.77,-0.05,0.32,-215.03,-9.09,41.63
30,-0.6,-0.29,0.49,-124.15,18.68,102.66
31,-0.59,-0.29,0.55,-111.94,41.63,110.41
32,-0.86,-0.05,0.72,-101.62,4.39,87.77
33,-0.81,-0.09,0.56,-94.24,11.17,116.82
34,-0.76,-0.34,0.75,-64.39,4.82,109.25
35,-0.63,-0.55,0.93,6.29,-8.85,3.85
36,-0.68,-0.26,0.65,66.71,0.43,-65.61
37,-0.65,-0.52,0.73,90.82,3.36,-116.33
38,-0.93,-0.42,0.53,136.66,23.01,-145.87
39,-1.1,-0.15,0.38,107.12,-11.17,-162.11
40,-1.07,-0.1,0.33,94.3,-2.62,-164.18
41,-1.09,-0.08,0.31,126.89,17.76,-132.75
42,-1.14,0.05,0.22,171.26,32.1,-116.03
43,-1.16,0.75,0.23,128.85,13.98,-107.97
44,-0.78,0.46,0.52,7.69,-15.26,-2.93
45,-1.02,0.58,0.66,-41.2,9.4,38.02
46,-0.98,0.41,0.41,-88.62,-14.65,83.8
47,-1.1,0.22,0.4,-118.23,-26.92,96.92
48,-1.08,0.03,0.37,-128.48,-13.85,121.4
49,-0.99,-0.15,0.39,-136.47,-26.92,132.69
50,-0.85,-0.36,0.45,-123.96,-16.36,138.55
51,-0.85,-0.36,0.52,-124.21,-6.29,123.47
52,-0.78,-0.29,0.58,-84.05,0.18,138.12
53,-0.83,-0.25,0.63,-102.17,-15.5,114.01
54,-0.27,-0.88,1.02,-3.48,13.92,35.95
55,-0.76,-0.2,0.66,47.42,4.64,-93.26
56,-0.66,-0.42,0.71,68.91,-1.89,-114.62
57,-0.76,-0.52,0.66,105.41,-4.15,-130.13
58,-0.92,-0.29,0.47,121.22,0.98,-145.45
59,-1.0,-0.14,0.41,96.07,0.61,-150.33
60,-1.04,-0.07,0.42,106.14,19.96,-125.98
61,-1.02,-0.03,0.45,112.18,20.63,-97.96
62,-0.95,-0.0,0.45,96.68,19.29,-93.44
63,-0.92,0.11,0.48,85.21,13.24,-72.94
64,-0.78,0.0,0.52,67.75,16.3,-68.79
65,-0.93,0.34,0.58,52.0,21.36,-27.77
66,-0.91,0.31,0.61,-13.18,6.23,-4.09
67,-0.97,0.39,0.57,-48.52,-14.34,34.73
68,-1.04,0.29,0.47,-101.26,-32.23,75.62
69,-1.1,0.15,0.37,-116.09,-41.56,109.13
70,-1.06,-0.13,0.39,-129.21,-25.51,138.67
71,-1.07,-0.24,0.43,-131.84,-32.47,133.91
72,-0.91,-0.36,0.46,-100.4,-24.9,149.84
73,-0.84,-0.36,0.49,-107.42,-19.84,131.96
74,-0.79,-0.3,0.54,-84.29,-11.78,145.08
75,-0.69,-0.41,0.68,-73.79,3.05,138.67
76,-0.29,-0.86,1.02,-5.68,21.48,44.01
77,-0.65,-0.39,0.72,46.33,8.61,-97.66
78,-0.74,-0.47,0.67,73.97,-2.93,-147.52
79,-0.84,-0.39,0.61,115.78,-3.72,-130.68
80,-0.94,-0.15,0.47,134.09,11.78,-120.42
81,-0.95,-0.09,0.44,107.85,21.55,-126.71
82,-0.99,-0.03,0.45,101.81,30.76,-112.43
83,-0.9,-0.08,0.46,88.87,26.0,-98.45
84,-0.93,-0.16,0.56,78.06,34.61,-94.6
85,-0.87,-0.2,0.43,110.17,29.24,-87.65
86,-1.19,0.46,0.57,65.12,28.99,-64.51
87,-0.93,0.35,0.56,-10.01,4.88,-4.88
88,-0.97,0.29,0.56,-50.23,-14.71,37.9
89,-1.11,0.26,0.5,-83.86,-35.1,86.49
90,-1.13,0.09,0.39,-109.13,-53.16,110.11
91,-1.04,-0.12,0.41,-120.85,-42.66,134.7
92,-0.92,-0.29,0.42,-119.63,-34.79,132.45
93,-0.88,-0.32,0.43,-117.55,-21.18,145.14
94,-0.77,-0.42,0.54,-107.36,-15.08,143.98
95,-0.7,-0.37,0.66,-85.33,1.16,125.31
96,-0.61,-0.42,0.71,-67.57,5.37,102.54
97,-0.62,-0.47,0.83,-25.82,12.94,56.15
98,-0.47,-0.6,0.87,33.94,8.12,-9.64
99,-0.58,-0.55,0.77,52.92,-4.52,-79.83
100,-0.82,-0.52,0.62,101.07,7.2,-148.99
101,-0.96,-0.31,0.46,129.94,19.53,-145.45
102,-1.01,-0.17,0.41,128.23,25.02,-138.98
103,-1.04,-0.11,0.37,104.19,30.15,-141.97
104,-1.04,-0.09,0.42,99.43,32.29,-114.81
105,-0.98,-0.08,0.42,94.24,28.63,-98.14
106,-0.89,-0.02,0.49,87.52,16.6,-77.03
107,-0.83,-0.01,0.5,73.43,18.62,-69.46
108,-1.01,0.33,0.58,43.03,22.89,-36.99
109,-0.91,0.23,0.58,-18.07,0.18,8.79
110,-1.06,0.27,0.59,-64.27,-22.71,52.19
111,-1.04,0.11,0.47,-84.59,-49.19,98.75
112,-1.1,0.02,0.33,-120.85,-44.19,133.06
113,-1.01,-0.17,0.37,-128.97,-35.34,138.24
114,-0.96,-0.32,0.41,-131.23,-31.8,138.12
115,-0.89,-0.42,0.48,-118.65,-18.86,138.79
116,-0.9,-0.34,0.55,-99.73,-21.67,129.58
117,-0.78,-0.38,0.57,-95.21,-26.37,134.28
118,-0.69,-0.38,0.64,-72.2,-8.85,121.77
119,-0.45,-0.71,0.9,-23.32,10.44,68.6
120,-0.45,-0.64,0.76,36.74,6.23,-65.98
121,-0.58,-0.58,0.67,71.23,8.3,-119.63
122,-0.86,-0.39,0.6,107.24,14.71,-124.39
123,-0.94,-0.31,0.51,111.63,19.41,-128.54
124,-0.97,-0.23,0.46,106.57,25.09,-138.24
125,-0.97,-0.17,0.45,88.26,24.41,-133.54
126,-0.94,-0.12,0.45,103.15,31.01,-101.38
127,-0.9,-0.14,0.49,82.52,29.72,-95.64
128,-0.88,-0.15,0.56,90.82,29.72,-78.98
129,-0.85,-0.11,0.44,78.92,30.88,-90.45
130,-0.95,0.2,0.63,62.19,16.24,-16.36
131,-0.94,0.22,0.61,-12.39,7.2,-2.08
132,-1.0,0.23,0.6,-53.83,-24.84,48.65
133,-0.98,0.07,0.53,-81.79,-49.32,88.99
134,-0.97,-0.02,0.43,-103.33,-44.74,116.88
135,-0.96,-0.17,0.47,-108.28,-44.86,121.15
136,-0.99,-0.22,0.43,-120.54,-42.24,123.35
137,-0.94,-0.36,0.47,-113.53,-36.68,132.75
138,-0.89,-0.45,0.52,-96.25,-34.3,135.8
139,-0.83,-0.35,0.53,-80.14,-29.97,151.06
140,-0.66,-0.43,0.65,-64.15,-18.55,144.29
141,-0.39,-0.72,0.8,-17.09,11.96,97.35
142,-0.45,-0.59,0.85,31.49,12.27,-31.13
143,-0.54,-0.54,0.77,53.77,-4.58,-87.16
144,-0.8,-0.49,0.68,82.58,3.6,-146.91
145,-0.86,-0.34,0.54,92.47,-0.85,-157.65
146,-0.91,-0.21,0.48,103.39,6.71,-137.08
147,-0.93,-0.1,0.47,95.09,24.48,-126.59
148,-0.93,-0.09,0.54,82.58,26.73,-111.63
149,-0.85,-0.1,0.51,74.89,26.67,-96.62
150,-0.81,-0.15,0.59,80.2,33.02,-79.04
151,-0.8,-0.14,0.53,83.44,34.24,-82.76
152,-1.01,0.18,0.72,55.73,25.76,-43.95
153,-0.96,0.3,0.65,-10.25,13.43,-5.25
154,-0.97,0.2,0.65,-46.26,-24.23,49.8
155,-0.95,0.17,0.49,-77.39,-44.98,87.1
156,-1.05,0.01,0.48,-118.9,-45.1,117.49
157,-1.01,-0.16,0.43,-113.77,-46.63,139.71
158,-0.96,-0.34,0.47,-115.6,-42.36,138.98
159,-0.91,-0.4,0.47,-107.79,-34.79,161.99
160,-0.84,-0.49,0.51,-106.69,-28.87,155.21
161,-0.86,-0.36,0.56,-86.67,-22.89,153.5
162,-0.58,-0.66,0.76,-50.6,-8.73,163.94
163,-0.06,-1.15,0.98,2.93,15.32,2.62
164,-0.7,-0.61,0.72,66.89,29.11,-132.08
165,-0.98,-0.33,0.48,102.72,28.93,-173.71
166,-0.89,-0.24,0.43,112.3,24.84,-166.32
167,-0.87,-0.06,0.25,120.79,29.17,-124.82
168,-0.87,-0.06,0.39,69.95,-5.55,-88.07
169,-0.81,-0.36,0.57,49.74,36.07,-100.22
170,-1.18,-0.27,0.35,79.04,77.76,-126.22
171,-1.38,0.48,0.67,157.59,37.41,-44.01
172,-0.9,0.22,0.53,-6.29,-17.88,10.8
173,-0.76,-0.13,0.66,-6.47,-9.34,22.64
174,-0.77,-0.1,0.6,-6.16,-6.71,17.09
175,-0.78,-0.09,0.52,-8.42,-3.48,22.89
176,-0.75,-0.07,0.38,-1.22,-12.88,42.6
177,-0.77,-0.02,0.38,-11.23,-17.4,51.51
178,-0.74,-0.08,0.52,-33.39,-63.54,62.07
179,-0.51,-0.14,0.67,33.45,-116.33,57.07
180,-0.49,-0.14,0.87,-23.13,2.5,31.37
181,-0.6,0.16,1.11,-4.82,-50.66,48.58
182,-0.5,0.13,1.01,-5.86,-27.1,62.74
183,-0.33,-0.01,1.23,-65.92,-121.34,37.17
184,-0.3,-0.04,0.8,-59.14,-152.4,71.04
185,0.06,0.14,0.22,-69.95,62.74,39.0
186,-0.43,-0.01,1.37,-49.99,11.05,8.79
187,-0.19,-0.06,1.04,-26.98,14.34,5.8
188,-0.13,-0.01,1.11,27.16,-30.7,-5.0
189,-0.22,-0.04,1.01,-11.41,2.69,16.48
190,-0.26,-0.08,0.98,6.96,-23.25,28.63
191,-0.1,-0.08,0.98,5.31,-11.47,57.86
192,-0.26,-0.13,0.96,5.19,-2.01,58.72
193,-0.06,-0.06,1.01,-3.66,0.61,226.14
194,0.55,-0.19,1.05,46.2,7.81,168.15
195,-0.04,0.09,1.01,-28.75,3.85,-28.93
196,-0.08,0.11,1.04,16.17,-9.46,7.75
197,-0.07,0.03,0.96,0.67,-1.53,0.73
198,-0.06,0.04,1.01,-3.85,1.16,1.89
199,-0.07,0.05,1.0,-0.31,1.89,1.65
200,-0.04,0.04,1.0,0.31,1.16,1.53
201,-0.05,0.05,1.01,0.37,-0.67,1.4
202,-0.07,0.05,1.0,0.31,-0.92,1.65
203,-0.06,0.05,1.0,0.79,-0.18,1.28
204,-0.06,0.06,0.99,-0.06,-0.43,1.22
205,-0.06,0.05,1.01,0.18,0.37,1.22
206,-0.06,0.05,1.0,0.85,-0.24,1.65
207,-0.06,0.05,1.0,0.37,0.55,1.1
208,-0.08,0.05,1.0,-1.53,0.85,2.38
209,-0.06,0.05,1.01,0.37,-1.22,1.34
210,-0.07,0.06,1.0,0.92,1.1,1.34
211,-0.05,0.06,1.0,-0.79,-0.37,1.28
212,-0.08,0.04,1.0,-1.22,1.65,0.24
213,-0.06,0.05,0.99,-0.49,-0.31,1.16
214,-0.08,0.06,1.01,0.0,0.73,0.73
215,-0.06,0.04,1.0,0.85,-0.49,1.28
216,-0.05,0.04,0.98,-0.98,-1.16,0.49
217,-0.05,0.05,0.99,-1.65,1.22,-0.31
218,-0.05,0.04,1.0,-1.4,1.71,-2.14
219,-0.07,0.04,1.01,-1.65,8.06,1.46
220,-0.08,0.03,1.01,-2.99,6.84,0.43
221,-0.09,0.04,1.0,-1.28,1.71,0.98
222,-0.09,0.04,1.0,-2.44,1.83,0.24
223,-0.09,0.03,1.0,-1.04,0.67,0.85
224,-0.09,0.03,1.01,0.37,-1.28,1.4
225,-0.09,0.03,1.0,0.18,-0.98,1.89
226,-0.09,0.03,0.99,0.31,-0.79,1.59
227,-0.09,0.03,0.99,-0.31,0.18,1.4
228,-0.09,0.03,1.0,-0.43,0.49,1.28
229,-0.1,0.03,1.0,-0.31,0.67,1.1
230,-0.09,0.03,0.99,-0.67,0.85,1.28
231,-0.1,0.03,1.0,-0.37,0.61,1.04
232,-0.1,0.03,1.0,-1.16,1.46,0.73
233,-0.09,0.03,1.0,-0.18,1.46,1.65
234,-0.1,0.03,1.0,0.43,-0.98,1.34
235,-0.1,0.02,1.0,-0.37,1.1,1.65
236,-0.1,0.03,1.0,0.0,0.61,1.59
237,-0.09,0.03,1.0,-0.06,0.06,1.46
238,-0.1,0.03,1.0,-0.31,-0.18,1.4
239,-0.1,0.03,1.0,0.0,0.0,1.46
240,-0.1,0.03,1.0,0.06,-0.37,1.4
241,-0.1,0.03,1.0,0.85,-1.22,1.53
242,-0.1,0.03,1.0,0.37,-0.31,1.34
243,-0.1,0.03,1.0,0.06,-0.31,1.4
244,-0.11,0.03,0.99,-0.06,1.89,1.77
245,-0.1,0.02,1.0,-0.37,-0.18,1.46
246,-0.1,0.03,1.0,0.0,-0.43,1.46
247,-0.09,0.03,1.0,-0.18,0.12,1.4
248,-0.1,0.03,1.0,-0.06,-0.24,1.46
249,-0.1,0.03,1.0,0.12,-0.37,1.4
250,-0.11,0.03,1.0,0.37,0.55,1.65
251,-0.1,0.03,1.0,-0.24,0.18,1.4
252,-0.1,0.03,1.0,-0.24,-0.18,1.46
253,-0.1,0.03,0.99,0.12,-0.31,1.46
254,-0.1,0.02,1.0,-0.06,-0.24,1.34
255,-0.1,0.03,0.99,0.24,-0.49,1.4
256,-0.1,0.03,1.0,0.06,-0.37,1.46
257,-0.1,0.03,1.0,0.0,-0.06,1.4
258,-0.1,0.03,1.0,0.12,-0.12,1.4
259,-0.1,0.03,1.0,0.18,-0.31,1.53
260,-0.1,0.03,1.0,0.18,-0.31,1.34
261,-0.1,0.02,1.0,0.06,-0.18,1.53
262,-0.11,0.03,1.0,0.37,-0.43,1.4
263,-0.09,0.02,1.01,-0.85,-2.01,0.98
264,-0.1,0.02,1.0,0.37,-0.73,1.53
265,-0.1,0.03,1.0,0.73,-0.55,1.4
266,-0.1,0.03,1.0,0.37,-0.18,1.4
267,-0.1,0.03,1.0,0.31,-0.24,1.34
268,-0.1,0.02,1.0,-0.06,0.31,1.4
269,-0.1,0.02,1.01,-0.18,-0.31,1.4
270,-0.1,0.02,1.0,0.37,-0.61,1.34
271,-0.1,0.02,1.0,-0.31,0.0,1.34
272,-0.1,0.02,1.0,-0.31,-0.43,1.4
273,-0.11,0.03,0.99,0.55,-0.67,1.71
274,-0.1,0.02,1.0,0.55,-2.14,1.46
275,-0.11,0.03,0.99,1.22,1.16,1.71
276,-0.11,0.03,1.0,0.24,-0.24,1.53
277,-0.1,0.02,1.0,0.24,0.06,0.85
278,-0.11,0.02,1.0,-0.31,0.73,1.04
279,-0.11,0.02,1.0,0.18,-0.37,1.34
280,-0.11,0.02,1.0,0.31,-0.43,1.4
281,-0.11,0.03,1.0,-0.06,0.0,1.4
282,-0.1,0.03,0.99,0.0,-0.18,1.34
283,-0.11,0.02,0.99,0.12,-0.43,1.46
284,-0.1,0.02,1.0,-0.12,-0.31,1.4
285,-0.1,0.02,1.0,0.12,-0.43,1.46
286,-0.11,0.03,1.0,0.06,-0.24,1.34
287,-0.11,0.02,0.99,0.12,-0.37,1.53
288,-0.11,0.02,1.0,0.12,0.18,1.28
289,-0.11,0.03,1.0,0.12,-0.31,1.34
290,-0.11,0.02,0.99,-0.55,2.62,1.53
291,-0.11,0.02,1.0,-0.98,2.01,1.22
292,-0.12,0.02,1.0,-0.24,0.92,1.16
293,-0.12,0.03,1.01,0.43,0.55,1.34
294,-0.13,0.03,1.0,0.18,1.59,1.04
295,-0.12,0.02,1.0,0.31,-0.06,1.59
296,-0.12,0.02,0.99,0.12,-0.06,1.46
297,-0.12,0.02,1.0,0.24,-0.67,1.53
298,-0.12,0.02,1.0,0.31,-0.61,1.46
299,-0.12,0.02,1.0,0.37,-0.67,1.46
300,-0.12,0.02,1.0,-0.18,-0.43,1.22
301,-0.14,0.02,1.02,-0.98,0.37,0.67
302,-0.12,0.01,0.98,0.12,-0.31,2.32
303,-0.12,0.02,0.97,0.12,-0.06,1.95
304,-0.11,0.02,0.99,-1.28,1.53,0.24
305,-0.11,0.01,0.99,-0.06,-0.61,1.34
306,-0.12,0.02,1.01,0.24,-0.67,1.04
307,-0.12,0.01,0.99,0.85,-0.79,1.53
308,-0.12,0.02,0.99,0.12,0.0,1.22
309,-0.12,0.02,1.0,-0.06,-0.18,1.46
310,-0.11,0.02,0.99,-0.49,0.0,1.4
311,-0.12,0.02,0.99,0.24,-0.73,1.46
312,-0.12,0.02,1.0,0.12,-0.61,1.46
313,-0.12,0.02,1.0,-0.18,-0.12,1.34
314,-0.12,0.02,1.0,0.0,-0.06,1.46
315,-0.12,0.02,1.0,-0.12,-0.24,1.4
316,-0.12,0.02,1.0,0.0,-0.49,1.46
317,-0.12,0.02,1.0,0.24,-0.12,1.4
318,-0.12,0.02,1.0,0.43,-0.55,1.34
319,-0.12,0.02,1.0,-0.31,0.24,1.4
320,-0.12,0.02,1.0,0.12,-0.43,1.46
321,-0.12,0.02,1.0,0.18,-0.43,1.46
322,-0.11,0.02,1.0,0.06,0.0,1.4
323,-0.12,0.02,0.99,-0.24,0.73,1.1
324,-0.12,0.02,0.99,-0.92,2.93,0.73
325,-0.12,0.01,1.0,0.06,0.98,1.16
326,-0.13,0.02,1.0,-0.12,-0.06,1.4
327,-0.14,0.02,1.02,0.85,-0.98,1.46
328,-0.12,0.01,1.0,0.43,-0.98,1.83
329,-0.13,0.02,1.0,0.12,-0.85,1.77
330,-0.12,0.02,1.0,1.34,-2.62,2.69
331,-0.13,0.03,1.01,2.87,-5.68,4.46
332,-0.09,0.02,0.92,2.08,0.67,2.38
333,-0.14,0.02,1.0,-0.43,0.61,0.98
334,-0.12,0.02,1.0,-1.89,-0.18,-0.92
335,-0.13,0.01,1.0,-1.16,1.16,0.73
336,-0.12,0.02,1.0,1.22,-0.12,1.53
337,-0.13,0.02,0.99,0.79,-0.37,1.83
338,-0.12,0.02,0.98,-0.06,-0.49,1.28
339,-0.12,0.02,1.0,0.12,-2.14,2.08
340,-0.12,0.01,1.0,2.93,-4.52,3.85
341,-0.13,0.03,1.01,-1.71,1.77,1.1
342,-0.12,0.02,0.99,-1.04,1.46,1.4
343,-0.12,0.02,1.01,-0.67,-0.73,0.98
344,-0.15,0.06,1.0,0.37,4.15,1.34
345,-0.1,0.02,0.98,-0.06,-0.49,0.92
346,-0.11,0.02,1.0,0.73,-1.53,0.79
347,-0.14,0.03,1.0,-1.04,0.0,1.16
348,-0.13,0.04,1.02,0.49,1.46,2.2
349,-0.13,0.02,0.99,0.31,-0.37,1.22
350,-0.12,0.02,1.0,0.0,-1.1,1.46
351,-0.12,0.02,0.99,-0.18,-0.79,1.46
352,-0.12,0.02,1.0,0.24,-0.12,1.34
353,-0.12,0.02,1.0,0.18,-0.31,1.4
354,-0.11,0.02,0.99,0.18,-0.43,1.46
355,-0.12,0.02,1.0,0.24,-0.55,1.53
356,-0.12,0.02,1.0,0.0,-0.92,1.34
357,-0.12,0.02,0.99,0.43,-0.79,1.4
358,-0.12,0.02,1.0,0.18,-0.73,1.46
359,-0.11,0.02,0.99,0.0,-0.37,1.34
360,-0.12,0.02,1.0,-0.06,0.31,1.28
361,-0.12,0.02,1.0,-0.06,-0.12,1.34
362,-0.12,0.01,1.0,-0.31,0.0,1.34
363,-0.12,0.02,0.99,-0.18,-0.31,1.22
364,-0.12,0.02,1.0,0.31,-0.43,1.34
365,-0.12,0.02,1.0,0.31,-0.43,1.53
366,-0.11,0.02,0.99,0.43,-0.61,1.53
367,-0.12,0.02,1.0,-0.06,0.0,1.46
368,-0.11,0.02,1.0,0.31,-0.43,1.46
369,-0.12,0.02,1.0,0.49,-0.55,1.46
370,-0.12,0.02,1.0,0.37,-0.61,1.46
371,-0.12,0.02,1.0,0.06,-0.31,1.4
372,-0.12,0.02,1.0,-0.12,0.24,1.34
373,-0.11,0.02,0.99,0.18,-0.49,1.4
374,-0.12,0.02,1.0,-0.06,-0.18,1.4
375,-0.11,0.02,0.99,0.18,-0.61,1.46
376,-0.12,0.02,0.99,-0.12,-0.37,1.4
377,-0.12,0.02,1.0,-0.18,-0.06,1.4
378,-0.12,0.02,0.99,0.12,-0.49,1.4
379,-0.12,0.02,1.0,0.31,-0.43,1.53
380,-0.12,0.02,0.99,0.18,-0.55,1.34
381,-0.12,0.02,1.0,0.12,-0.55,1.34
382,-0.11,0.02,1.0,0.43,-0.73,1.46
383,-0.12,0.02,1.0,0.37,-0.55,1.46
384,-0.12,0.02,1.0,0.0,-0.06,1.46
385,-0.12,0.02,0.99,0.06,-0.37,1.4
386,-0.12,0.02,1.0,0.18,0.0,1.46
387,-0.12,0.02,0.99,-0.31,-0.06,1.34
388,-0.11,0.02,1.0,0.0,-0.49,1.4
389,-0.12,0.02,1.0,0.31,-0.12,1.46
390,-0.12,0.02,1.0,0.31,-0.55,1.53
391,-0.12,0.02,1.0,-0.24,0.06,1.1
392,-0.11,0.02,0.99,0.18,-0.24,1.4
393,-0.12,0.02,1.0,0.24,-0.73,1.77
394,-0.12,0.02,1.0,-0.37,0.24,1.46
395,-0.12,0.02,1.0,0.61,-1.59,1.65
396,-0.11,0.02,0.99,-0.49,-0.55,1.59
397,-0.12,0.02,0.99,-0.12,0.12,1.4
398,-0.12,0.01,1.0,-0.31,0.37,1.4
399,-0.12,0.02,1.0,-1.77,2.08,1.46
400,-0.12,0.02,1.0,-0.37,1.83,1.1
401,-0.12,0.02,1.0,0.12,0.12,1.53
402,-0.11,0.02,0.99,0.18,-1.89,2.08
403,-0.11,0.02,1.0,0.67,-2.01,2.08
404,-0.11,0.02,0.99,1.4,-1.83,2.32
405,-0.11,0.02,1.0,-0.31,-0.06,1.28
